{
	"resourceType": "Bundle",
	"id": "16b80922-b538-4ab3-9176-a80b51249060",
	"meta": {
		"profile": [
			"http://nphies.sa/fhir/ksa/nphies-fs/StructureDefinition/bundle|1.0.0"
		]
	},
	"type": "message",
	"timestamp": "2021-12-02T18:30:29.683Z",
	"entry": [
		{
			"fullUrl": "urn:uuid:790739e8-c8d0-44f8-b0e0-f89310ea9060",
			"resource": {
				"resourceType": "MessageHeader",
				"id": "790739e8-c8d0-44f8-b0e0-f89310ea9060",
				"meta": {
					"profile": [
						"http://nphies.sa/fhir/ksa/nphies-fs/StructureDefinition/message-header|1.0.0"
					]
				},
				"eventCoding": {
					"system": "http://nphies.sa/terminology/CodeSystem/ksa-message-events",
					"code": "payment-reconciliation"
				},
				"destination": [
					{
						"endpoint": "http://nphies.sa/license/provider-license/N-F-00003",
						"receiver": {
							"type": "Organization",
							"identifier": {
								"system": "http://nphies.sa/license/provider-license",
								"value": "N-F-00003"
							}
						}
					}
				],
				"sender": {
					"type": "Organization",
					"identifier": {
						"system": "http://nphies.sa/license/payer-license",
						"value": "N-I-00001"
					}
				},
				"source": {
					"endpoint": "http://nphies.sa/license/payer-license/N-I-00001"
				},
				"focus": [
					{
						"reference": "http://sni.com.sa/PaymentReconciliation/99060"
					}
				]
			}
		},
		{
			"fullUrl": "http://sni.com.sa/PaymentReconciliation/99060",
			"resource": {
				"resourceType": "PaymentReconciliation",
				"id": "99060",
				"meta": {
					"profile": [
						"http://nphies.sa/fhir/ksa/nphies-fs/StructureDefinition/payment-reconciliation|1.0.0"
					]
				},
				"identifier": [
					{
						"system": "http://sni.com.sa/paymentreconciliation",
						"value": "929060"
					}
				],
				"status": "active",
				"period": {
					"start": "2021-10-01",
					"end": "2021-10-31"
				},
				"created": "2022-02-14",
				"paymentIssuer": {
					"reference": "http://sni.com.sa/Organization/11"
				},
				"requestor": {
					"reference": "http://saudidentalclinic.com.sa/Organization/b1b3432921324f97af3be9fd0b1a14ae"
				},
				"paymentIdentifier": [
					{
						"type": {
							"coding": [
								{
									"system": "http://nphies.sa/terminology/CodeSystem/payment-method",
									"code": "eft"
								}
							]
						},
						"system": "http://saudinationalbank/payment-45908",
						"value": "URN-987590432322"
					}
				],
				"outcome": "complete",
				"disposition": "Payment made for the month of October, 2021",
				"paymentDate": "2021-11-02",
				"paymentAmount": {
					"value": 193.55,
					"currency": "SAR"
				},
				"detail": [
					{
						"extension": [
							{
								"url": "http://nphies.sa/fhir/ksa/nphies-fs/StructureDefinition/extension-component-payment",
								"valueMoney": {
									"value": 195.5,
									"currency": "SAR"
								}
							},
							{
								"url": "http://nphies.sa/fhir/ksa/nphies-fs/StructureDefinition/extension-component-early-fee",
								"valueMoney": {
									"value": 0,
									"currency": "SAR"
								}
							},
							{
								"url": "http://nphies.sa/fhir/ksa/nphies-fs/StructureDefinition/extension-component-nphies-fee",
								"valueMoney": {
									"value": -1.95,
									"currency": "SAR"
								}
							}
						],
						"type": {
							"coding": [
								{
									"system": "http://terminology.hl7.org/CodeSystem/payment-type",
									"code": "payment"
								}
							]
						},
						"request": {
							"identifier": {
								"system": "http://saudidentalclinic.com.sa/claim",
								"value": "req_299060"
							}
						},
						"submitter": {
							"reference": "http://saudidentalclinic.com.sa/Organization/b1b3432921324f97af3be9fd0b1a14ae"
						},
						"response": {
							"identifier": {
								"system": "http://sni.com.sa/claimresponse",
								"value": "resp_419060"
							}
						},
						"date": "2021-10-07",
						"payee": {
							"reference": "http://saudidentalclinic.com.sa/Organization/b1b3432921324f97af3be9fd0b1a14ae"
						},
						"amount": {
							"value": 193.55,
							"currency": "SAR"
						}
					}
				]
			}
		},
		{
			"fullUrl": "http://saudidentalclinic.com.sa/Organization/b1b3432921324f97af3be9fd0b1a14ae",
			"resource": {
				"resourceType": "Organization",
				"id": "b1b3432921324f97af3be9fd0b1a14ae",
				"meta": {
					"profile": [
						"http://nphies.sa/fhir/ksa/nphies-fs/StructureDefinition/provider-organization|1.0.0"
					]
				},
				"identifier": [
					{
						"system": "http://nphies.sa/license/provider-license",
						"value": "N-F-00003"
					}
				],
				"active": true,
				"type": [
					{
						"coding": [
							{
								"system": "http://nphies.sa/terminology/CodeSystem/organization-type",
								"code": "prov"
							}
						]
					}
				],
				"name": "Saudi Dentist Clinic"
			}
		},
		{
			"fullUrl": "http://sni.com.sa/Organization/11",
			"resource": {
				"resourceType": "Organization",
				"id": "11",
				"meta": {
					"profile": [
						"http://nphies.sa/fhir/ksa/nphies-fs/StructureDefinition/insurer-organization|1.0.0"
					]
				},
				"identifier": [
					{
						"system": "http://nphies.sa/license/payer-license",
						"value": "N-I-00001"
					}
				],
				"active": true,
				"type": [
					{
						"coding": [
							{
								"system": "http://nphies.sa/terminology/CodeSystem/organization-type",
								"code": "ins"
							}
						]
					}
				],
				"name": "Saudi National Insurance"
			}
		}
	]
}