{
	"resourceType": "Bundle",
	"id": "c37fa5bf-8f6a-42c9-b3cc-0435b8cd2900",
	"meta": {
		"profile": [
			"http://nphies.sa/fhir/ksa/nphies-fs/StructureDefinition/bundle|1.0.0"
		]
	},
	"type": "message",
	"timestamp": "2021-07-15T11:56:59.96+00:00",
	"entry": [
		{
			"fullUrl": "urn:uuid:99c45781-3ff6-4997-adc9-a8e403b22900",
			"resource": {
				"resourceType": "MessageHeader",
				"id": "99c45781-3ff6-4997-adc9-a8e403b22900",
				"meta": {
					"profile": [
						"http://nphies.sa/fhir/ksa/nphies-fs/StructureDefinition/message-header|1.0.0"
					]
				},
				"eventCoding": {
					"system": "http://nphies.sa/terminology/CodeSystem/ksa-message-events",
					"code": "eligibility-response"
				},
				"destination": [
					{
						"endpoint": "http://sgh.com.sa",
						"receiver": {
							"type": "Organization",
							"identifier": {
								"system": "http://nphies.sa/license/provider-license",
								"value": "N-F-00001"
							}
						}
					}
				],
				"sender": {
					"type": "Organization",
					"identifier": {
						"system": "http://nphies.sa/license/payer-license",
						"value": "N-I-00001"
					}
				},
				"source": {
					"endpoint": "http://nphies.sa/license/payer-license/N-I-00001"
				},
				"response": {
					"identifier": "c19c71dc-cfad-4401-b5b0-c0f20e8f2900",
					"code": "ok"
				},
				"focus": [
					{
						"reference": "http://sni.com.sa/Coverageeligibilityresponse/62900"
					}
				]
			}
		},
		{
			"fullUrl": "http://sni.com.sa/Coverageeligibilityresponse/62900",
			"resource": {
				"resourceType": "CoverageEligibilityResponse",
				"id": "62900",
				"meta": {
					"profile": [
						"http://nphies.sa/fhir/ksa/nphies-fs/StructureDefinition/eligibility-response|1.0.0"
					]
				},
				"extension": [
					{
						"url": "http://nphies.sa/fhir/ksa/nphies-fs/StructureDefinition/extension-siteEligibility",
						"valueCodeableConcept": {
							"coding": [
								{
									"system": "http://nphies.sa/terminology/CodeSystem/siteEligibility",
									"code": "out-network"
								}
							]
						}
					}
				],
				"identifier": [
					{
						"system": "http://sgh.com.sa/identifier/coverageeligibilityresponse",
						"value": "req_162900"
					}
				],
				"status": "active",
				"purpose": [
					"discovery"
				],
				"patient": {
					"reference": "http://sgh.com.sa/Patient/123456788"
				},
				"servicedPeriod": {
					"start": "2021-07-15",
					"end": "2021-07-16"
				},
				"created": "2021-07-15T11:56:59.976+00:00",
				"request": {
					"identifier": {
						"system": "http://sgh.com.sa/identifier/coverageeligibilityrequest",
						"value": "req_162900"
					}
				},
				"outcome": "complete",
				"disposition": "Patient is out of network",
				"insurer": {
					"reference": "http://sgh.com.sa/Organization/bff3aa1fbd3648619ac082357bf135db"
				}
			}
		},
		{
			"fullUrl": "http://sgh.com.sa/Patient/123456788",
			"resource": {
				"resourceType": "Patient",
				"id": "123456788",
				"meta": {
					"profile": [
						"http://nphies.sa/fhir/ksa/nphies-fs/StructureDefinition/patient|1.0.0"
					]
				},
				"identifier": [
					{
						"type": {
							"coding": [
								{
									"system": "http://terminology.hl7.org/CodeSystem/v2-0203",
									"code": "PRC",
									"display": "iqama"
								}
							]
						},
						"system": "http://nphies.sa/identifier/iqama",
						"value": "0000000002"
					}
				],
				"active": true,
				"name": [
					{
						"use": "official",
						"text": "Muhammad Ali Abbas",
						"family": "Abbas",
						"given": [
							"Muhammad",
							"Ali"
						]
					}
				],
				"telecom": [
					{
						"system": "phone",
						"value": "+966512345691"
					}
				],
				"gender": "male",
				"_gender": {
					"extension": [
						{
							"url": "http://nphies.sa/fhir/ksa/nphies-fs/StructureDefinition/extension-ksa-administrative-gender",
							"valueCodeableConcept": {
								"coding": [
									{
										"system": "http://nphies.sa/terminology/CodeSystem/ksa-administrative-gender",
										"code": "male",
										"display": "Male"
									}
								]
							}
						}
					]
				},
				"birthDate": "2010-08-21"
			}
		},
		{
			"fullUrl": "http://sgh.com.sa/Organization/bff3aa1fbd3648619ac082357bf135db",
			"resource": {
				"resourceType": "Organization",
				"id": "bff3aa1fbd3648619ac082357bf135db",
				"meta": {
					"profile": [
						"http://nphies.sa/fhir/ksa/nphies-fs/StructureDefinition/insurer-organization|1.0.0"
					]
				},
				"identifier": [
					{
						"use": "official",
						"system": "http://nphies.sa/license/payer-license",
						"value": "N-I-00001"
					}
				],
				"active": true,
				"type": [
					{
						"coding": [
							{
								"system": "http://nphies.sa/terminology/CodeSystem/organization-type",
								"code": "ins"
							}
						]
					}
				],
				"name": "Saudi National Insurance"
			}
		}
	]
}